sender,sender_type,sender_id,timestamp,meta,color_final,color_initial,consent,duration,ended_on,letter,multiColorExp,ncolor,rep,time_commit,time_end,time_render,time_run,time_show,time_switch,url
Consent Form,html.Form,0_0,2025-09-14T10:11:25.886Z,"{""labjs_version"":""20.2.4"",""labjs_build"":{""flavor"":""development"",""commit"":""f5b4a49f956347addd546a832a3327688c2c0fef""},""location"":""https://labjs.felixhenninger.com/api/labjs_preview/index.html"",""userAgent"":""Mozilla/5.0 (Macintosh; Intel Mac OS X 10_15_7) AppleWebKit/537.36 (KHTML, like Gecko) Chrome/140.0.0.0 Safari/537.36"",""platform"":""MacIntel"",""language"":""en-US"",""locale"":""en-US"",""timeZone"":""Europe/Amsterdam"",""timezoneOffset"":-120,""screen_width"":2560,""screen_height"":1440,""scroll_width"":1670,""scroll_height"":1114,""window_innerWidth"":1670,""window_innerHeight"":1162,""devicePixelRatio"":1}",,,yes,1603.9999998569488,,,,,,1695.2000000476837,1694.8999998569489,74.2,68.29999995231628,90.9,1725.596,{}
No Consent,html.Screen,0_1,2025-09-14T10:11:25.887Z,,,,yes,NaN,skipped,,,,,1696,1694.8999998569489,,1695.8999998569489,,1725.596,
Instructions,html.Screen,0_2_0,2025-09-14T10:11:27.165Z,,,,yes,1248.6040000476837,,,,,,2974.2999999523163,2974.2000000476837,1725.596,1740.2000000476837,1725.596,2976.6,
Subjective Experience,html.Form,0_2_1_0_0_0_0,2025-09-14T10:11:28.725Z,,,,,1557.799999856949,,I,,1,1,4534.5,4534.399999856949,2960,2974.5,2976.6,4561.3,
Multicolor Textbox,html.Form,0_2_1_0_0_0_1,2025-09-14T10:11:28.726Z,,,,,NaN,skipped,I,,,1,4535.200000047684,4534.399999856949,,4535.099999904633,,4561.3,
ColorPicker Question,html.Screen,0_2_1_0_0_0_2,2025-09-14T10:11:30.604Z,,#6f9cd8,#144a92,,1852.1999999999998,,I,,,1,6413.700000047684,6413.5,4544.6,4535.200000047684,4561.3,6429.5,
Single Trial,flow.Sequence,0_2_1_0_0_0,2025-09-14T10:11:30.605Z,,,,,3436.9,completion,I,,,1,6414,6413.5,2960,2974.399999856949,2976.6,6429.5,
Subjective Experience,html.Form,0_2_1_0_0_1_0,2025-09-14T10:11:32.565Z,,,,,1945.0999999046326,,Q,,1,1,8374.700000047684,8374.599999904633,6412.8,6414.099999904633,6429.5,8381.1,
Multicolor Textbox,html.Form,0_2_1_0_0_1_1,2025-09-14T10:11:32.566Z,,,,,NaN,skipped,Q,,,1,8375.299999952316,8374.599999904633,,8375.200000047684,,8381.1,
ColorPicker Question,html.Screen,0_2_1_0_0_1_2,2025-09-14T10:11:34.030Z,,#a49e2c,#f8ec01,,1457.699999952316,,Q,,,1,9838.899999856949,9838.799999952316,8364.362,8375.299999952316,8381.1,9848.9,
Single Trial,flow.Sequence,0_2_1_0_0_1,2025-09-14T10:11:34.030Z,,,,,3409.2999999523163,completion,Q,,,1,9839.099999904633,9838.799999952316,6412.8,6414.099999904633,6429.5,9848.9,
Subjective Experience,html.Form,0_2_1_0_0_2_0,2025-09-14T10:11:35.532Z,,,,,1492.4999998569492,,X,,1,1,11341.599999904633,11341.399999856949,9832.23,9839.099999904633,9848.9,11366.9,
Multicolor Textbox,html.Form,0_2_1_0_0_2_1,2025-09-14T10:11:35.533Z,,,,,NaN,skipped,X,,,1,11342.099999904633,11341.399999856949,,11342,,11366.9,
ColorPicker Question,html.Screen,0_2_1_0_0_2_2,2025-09-14T10:11:36.837Z,,#e0bc61,#f8c23a,,1279.199999904633,,X,,,1,12646.299999952316,12646.099999904633,11350.2,11342.200000047684,11366.9,12651.3,
Single Trial,flow.Sequence,0_2_1_0_0_2,2025-09-14T10:11:36.837Z,,,,,2797.199999904633,completion,X,,,1,12646.399999856949,12646.099999904633,9832.23,9839.099999904633,9848.9,12651.3,
Subjective Experience,html.Form,0_2_1_0_0_3_0,2025-09-14T10:11:39.661Z,,,,,2819.2999999046333,,G,,2,1,15470.899999856949,15470.599999904633,12634.5,12646.399999856949,12651.3,15487,
Multicolor Textbox,html.Form,0_2_1_0_0_3_1,2025-09-14T10:11:42.630Z,,,,,2952,,G,asdf,,1,18439.200000047684,18439,15470.13,15471.200000047684,15487,18456.1,
ColorPicker Question,html.Screen,0_2_1_0_0_3_2,2025-09-14T10:11:44.141Z,,#de76e7,#5b2260,,1494.2999998569503,,G,,,1,19950.700000047684,19950.39999985695,18439.4,18439.299999952316,18456.1,19957.2,
Single Trial,flow.Sequence,0_2_1_0_0_3,2025-09-14T10:11:44.141Z,,,,,7299.09999985695,completion,G,,,1,19950.799999952316,19950.39999985695,12634.5,12646.399999856949,12651.3,19957.2,
Subjective Experience,html.Form,0_2_1_0_0_4_0,2025-09-14T10:11:45.925Z,,,,,1776.8999999046318,,S,,1,1,21734.200000047684,21734.099999904633,19940.6,19950.89999985695,19957.2,21742.1,
Multicolor Textbox,html.Form,0_2_1_0_0_4_1,2025-09-14T10:11:45.925Z,,,,,NaN,skipped,S,,,1,21734.599999904633,21734.099999904633,,21734.599999904633,,21742.1,
ColorPicker Question,html.Screen,0_2_1_0_0_4_2,2025-09-14T10:11:47.413Z,,#194b39,#43f8b7,,1480.499999904634,,S,,,1,23222.700000047684,23222.599999904633,21725.362,21734.599999904633,21742.1,23226.2,
Single Trial,flow.Sequence,0_2_1_0_0_4,2025-09-14T10:11:47.414Z,,,,,3265.399999904632,completion,S,,,1,23222.89999985695,23222.599999904633,19940.6,19950.89999985695,19957.2,23226.2,
Subjective Experience,html.Form,0_2_1_0_0_5_0,2025-09-14T10:11:48.901Z,,,,,1483.7999999999993,,M,,1,1,24710.299999952316,24710,23210,23223,23226.2,24727.9,
Multicolor Textbox,html.Form,0_2_1_0_0_5_1,2025-09-14T10:11:48.901Z,,,,,NaN,skipped,M,,,1,24710.700000047684,24710,,24710.599999904633,,24727.9,
ColorPicker Question,html.Screen,0_2_1_0_0_5_2,2025-09-14T10:11:50.348Z,,#c1da1d,#b6ce17,,1429.199999904631,,M,,,1,26157.299999952316,26157.099999904633,24711.2,24710.700000047684,24727.9,26179,
Single Trial,flow.Sequence,0_2_1_0_0_5,2025-09-14T10:11:50.348Z,,,,,2930.899999904632,completion,M,,,1,26157.5,26157.099999904633,23210,23223,23226.2,26179,
Subjective Experience,html.Form,0_2_1_0_0_6_0,2025-09-14T10:11:52.158Z,,,,,1787.8999998569489,,T,,1,1,27967.099999904633,27966.89999985695,26162.366,26157.5,26179,27980.3,
Multicolor Textbox,html.Form,0_2_1_0_0_6_1,2025-09-14T10:11:52.158Z,,,,,NaN,skipped,T,,,1,27967.599999904633,27966.89999985695,,27967.599999904633,,27980.3,
ColorPicker Question,html.Screen,0_2_1_0_0_6_2,2025-09-14T10:11:53.581Z,,#db8eb0,#9a2659,,1409.499999952317,,T,,,1,29389.89999985695,29389.799999952316,27963.83,27967.599999904633,27980.3,29398.4,
Single Trial,flow.Sequence,0_2_1_0_0_6,2025-09-14T10:11:53.581Z,,,,,3210.7999999523163,completion,T,,,1,29390,29389.799999952316,26162.366,26157.5,26179,29398.4,
Subjective Experience,html.Form,0_2_1_0_0_7_0,2025-09-14T10:11:54.948Z,,,,,1358.699999904631,,B,,1,1,30757.200000047684,30757.099999904633,29381.7,29390.200000047684,29398.4,30766.1,
Multicolor Textbox,html.Form,0_2_1_0_0_7_1,2025-09-14T10:11:54.948Z,,,,,NaN,skipped,B,,,1,30757.599999904633,30757.099999904633,,30757.599999904633,,30766.1,
ColorPicker Question,html.Screen,0_2_1_0_0_7_2,2025-09-14T10:11:56.365Z,,#dabe68,#f4d167,,1408.4000000000015,,B,,,1,32174.700000047684,32174.5,30749.5,30757.700000047684,30766.1,32184,
Single Trial,flow.Sequence,0_2_1_0_0_7,2025-09-14T10:11:56.365Z,,,,,2776.0999999999985,completion,B,,,1,32174.799999952316,32174.5,29381.7,29390.099999904633,29398.4,32184,
Subjective Experience,html.Form,0_2_1_0_0_8_0,2025-09-14T10:11:57.797Z,,,,,1422.2999999523163,,A,,1,1,33606.39999985695,33606.299999952316,32167.3,32174.799999952316,32184,33618.5,
Multicolor Textbox,html.Form,0_2_1_0_0_8_1,2025-09-14T10:11:57.798Z,,,,,NaN,skipped,A,,,1,33606.89999985695,33606.299999952316,,33606.89999985695,,33618.5,
ColorPicker Question,html.Screen,0_2_1_0_0_8_2,2025-09-14T10:11:59.229Z,,#b3c837,#cce055,,1420,,A,,,1,35038.700000047684,35038.5,33601.9,33607,33618.5,35053.1,
Single Trial,flow.Sequence,0_2_1_0_0_8,2025-09-14T10:11:59.230Z,,,,,2854.5,completion,A,,,1,35038.89999985695,35038.5,32167.3,32174.799999952316,32184,35053.1,
Subjective Experience,html.Form,0_2_1_0_0_9_0,2025-09-14T10:12:00.774Z,,,,,1529.6999999523177,,F,,1,1,36583,36582.799999952316,35036.33,35038.89999985695,35053.1,36587.6,
Multicolor Textbox,html.Form,0_2_1_0_0_9_1,2025-09-14T10:12:00.774Z,,,,,NaN,skipped,F,,,1,36583.59999990463,36582.799999952316,,36583.5,,36587.6,
ColorPicker Question,html.Screen,0_2_1_0_0_9_2,2025-09-14T10:12:02.166Z,,#1d8c29,#1d8c85,,1387.1000000476852,,F,,,1,37975,37974.700000047684,36570.9,36583.59999990463,36587.6,37988.3,
Single Trial,flow.Sequence,0_2_1_0_0_9,2025-09-14T10:12:02.166Z,,,,,2921.600000047685,completion,F,,,1,37975,37974.700000047684,35036.33,35038.89999985695,35053.1,37988.3,
Subjective Experience,html.Form,0_2_1_0_0_10_0,2025-09-14T10:12:03.581Z,,,,,1402.199999999997,,H,,1,1,39390.700000047684,39390.5,37972.064,37975.09999990463,37988.3,39406.6,
Multicolor Textbox,html.Form,0_2_1_0_0_10_1,2025-09-14T10:12:03.582Z,,,,,NaN,skipped,H,,,1,39391.200000047684,39390.5,,39391.09999990463,,39406.6,
ColorPicker Question,html.Screen,0_2_1_0_0_10_2,2025-09-14T10:12:04.990Z,,#98c0a3,#98b0c0,,1392.1000000476852,,H,,,1,40798.799999952316,40798.700000047684,39389.9,39391.200000047684,39406.6,40807.7,
Single Trial,flow.Sequence,0_2_1_0_0_10,2025-09-14T10:12:04.990Z,,,,,2810.400000047681,completion,H,,,1,40798.89999985695,40798.700000047684,37972.064,37975,37988.3,40807.7,
Subjective Experience,html.Form,0_2_1_0_0_11_0,2025-09-14T10:12:06.646Z,,,,,1647.1999998569518,,C,,1,1,42455,42454.89999985695,40791.098,40798.89999985695,40807.7,42475.9,
Multicolor Textbox,html.Form,0_2_1_0_0_11_1,2025-09-14T10:12:06.646Z,,,,,NaN,skipped,C,,,1,42455.5,42454.89999985695,,42455.5,,42475.9,
ColorPicker Question,html.Screen,0_2_1_0_0_11_2,2025-09-14T10:12:08.140Z,,#3e705a,#3e4570,,1473.3999999523148,,C,,,1,43949.59999990463,43949.299999952316,42459.1,42455.59999990463,42475.9,43960.3,
Single Trial,flow.Sequence,0_2_1_0_0_11,2025-09-14T10:12:08.140Z,,,,,3141.599999952319,completion,C,,,1,43949.700000047684,43949.299999952316,40791.098,40798.89999985695,40807.7,43960.3,
Subjective Experience,html.Form,0_2_1_0_0_12_0,2025-09-14T10:12:09.957Z,,,,,1806.199999999997,,O,,1,1,45766.799999952316,45766.5,43943.666,43949.799999952316,43960.3,45778.5,
Multicolor Textbox,html.Form,0_2_1_0_0_12_1,2025-09-14T10:12:09.958Z,,,,,NaN,skipped,O,,,1,45767.39999985695,45766.5,,45767.299999952316,,45778.5,
ColorPicker Question,html.Screen,0_2_1_0_0_12_2,2025-09-14T10:12:11.468Z,,#357877,#3e7835,,1498.8999998569489,,O,,,1,47277.5,47277.39999985695,45761.9,45767.39999985695,45778.5,47296.4,
Single Trial,flow.Sequence,0_2_1_0_0_12,2025-09-14T10:12:11.468Z,,,,,3317.099999856946,completion,O,,,1,47277.59999990463,47277.39999985695,43943.666,43949.799999952316,43960.3,47296.4,
Subjective Experience,html.Form,0_2_1_0_0_13_0,2025-09-14T10:12:13.245Z,,,,,1758.0999999999985,,Y,,1,1,49054.59999990463,49054.5,47279.8,47277.700000047684,47296.4,49064.6,
Multicolor Textbox,html.Form,0_2_1_0_0_13_1,2025-09-14T10:12:13.246Z,,,,,NaN,skipped,Y,,,1,49055.09999990463,49054.5,,49055,,49064.6,
ColorPicker Question,html.Screen,0_2_1_0_0_13_2,2025-09-14T10:12:14.580Z,,#2cb0bb,#2c35bb,,1324.6999999523177,,Y,,,1,50389.5,50389.299999952316,49047.9,49055.200000047684,49064.6,50399,
Single Trial,flow.Sequence,0_2_1_0_0_13,2025-09-14T10:12:14.580Z,,,,,3092.899999952315,completion,Y,,,1,50389.59999990463,50389.299999952316,47279.8,47277.700000047684,47296.4,50399,
Subjective Experience,html.Form,0_2_1_0_0_14_0,2025-09-14T10:12:15.982Z,,,,,1392,,R,,1,1,51791,51791,50382.3,50389.59999990463,50399,51800.1,
Multicolor Textbox,html.Form,0_2_1_0_0_14_1,2025-09-14T10:12:15.982Z,,,,,NaN,skipped,R,,,1,51791.59999990463,51791,,51791.59999990463,,51800.1,
ColorPicker Question,html.Screen,0_2_1_0_0_14_2,2025-09-14T10:12:17.453Z,,#053a5d,#5d055c,,1462.1999999523177,,R,,,1,53262.5,53262.299999952316,51783.5,51791.59999990463,51800.1,53268,
Single Trial,flow.Sequence,0_2_1_0_0_14,2025-09-14T10:12:17.453Z,,,,,2863.2999999523163,completion,R,,,1,53262.59999990463,53262.299999952316,50382.3,50389.59999990463,50399,53268,
Subjective Experience,html.Form,0_2_1_0_0_15_0,2025-09-14T10:12:19.021Z,,,,,1561.5999999046326,,E,,1,1,54829.700000047684,54829.59999990463,53251.4,53262.59999990463,53268,54836,
Multicolor Textbox,html.Form,0_2_1_0_0_15_1,2025-09-14T10:12:19.021Z,,,,,NaN,skipped,E,,,1,54830.200000047684,54829.59999990463,,54830.200000047684,,54836,
ColorPicker Question,html.Screen,0_2_1_0_0_15_2,2025-09-14T10:12:20.421Z,,#0c72e4,#0ce45f,,1394.3999998569489,,E,,,1,56230.5,56230.39999985695,54819.3,54830.200000047684,54836,56237.1,
Single Trial,flow.Sequence,0_2_1_0_0_15,2025-09-14T10:12:20.421Z,,,,,2962.399999856949,completion,E,,,1,56230.700000047684,56230.39999985695,53251.4,53262.59999990463,53268,56237.1,
Subjective Experience,html.Form,0_2_1_0_0_16_0,2025-09-14T10:12:22.246Z,,,,,1817.6999999523177,,W,,1,1,58054.89999985695,58054.799999952316,56220.5,56230.799999952316,56237.1,58072,
Multicolor Textbox,html.Form,0_2_1_0_0_16_1,2025-09-14T10:12:22.246Z,,,,,NaN,skipped,W,,,1,58055.59999990463,58054.799999952316,,58055.5,,58072,
ColorPicker Question,html.Screen,0_2_1_0_0_16_2,2025-09-14T10:12:23.692Z,,#3061f2,#101e48,,1428.8999998569489,,W,,,1,59500.89999985695,59500.89999985695,58055.264,58055.59999990463,58072,59506.5,
Single Trial,flow.Sequence,0_2_1_0_0_16,2025-09-14T10:12:23.692Z,,,,,3263.7999998569503,completion,W,,,1,59500.89999985695,59500.89999985695,56220.5,56230.799999952316,56237.1,59506.5,
Subjective Experience,html.Form,0_2_1_0_0_17_0,2025-09-14T10:12:26.052Z,,,,,2354.7999999523163,,V,,1,1,61861.5,61861.299999952316,59489.8,59501,59506.5,61875.1,
Multicolor Textbox,html.Form,0_2_1_0_0_17_1,2025-09-14T10:12:26.053Z,,,,,NaN,skipped,V,,,1,61862,61861.299999952316,,61861.89999985695,,61875.1,
ColorPicker Question,html.Screen,0_2_1_0_0_17_2,2025-09-14T10:12:27.565Z,,#1f4cb3,#8fb31f,,1499.1000000476852,,V,,,1,63374.299999952316,63374.200000047684,61858.5,61862.09999990463,61875.1,63376.2,
Single Trial,flow.Sequence,0_2_1_0_0_17,2025-09-14T10:12:27.565Z,,,,,3867.7000000476837,completion,V,,,1,63374.5,63374.200000047684,59489.8,59501,59506.5,63376.2,
Subjective Experience,html.Form,0_2_1_0_0_18_0,2025-09-14T10:12:28.997Z,,,,,1430.0000000476866,,J,,1,1,64806.39999985695,64806.200000047684,63359.3,63374.5,63376.2,64810.8,
Multicolor Textbox,html.Form,0_2_1_0_0_18_1,2025-09-14T10:12:28.998Z,,,,,NaN,skipped,J,,,1,64806.799999952316,64806.200000047684,,64806.700000047684,,64810.8,
ColorPicker Question,html.Screen,0_2_1_0_0_18_2,2025-09-14T10:12:30.397Z,,#2352b5,#57b523,,1395.4000000476808,,J,,,1,66206.39999985695,66206.20000004768,64794.198,64806.799999952316,64810.8,66212,
Single Trial,flow.Sequence,0_2_1_0_0_18,2025-09-14T10:12:30.397Z,,,,,2830.0000000476866,completion,J,,,1,66206.5,66206.20000004768,63359.3,63374.5,63376.2,66212,
Subjective Experience,html.Form,0_2_1_0_0_19_0,2025-09-14T10:12:31.788Z,,,,,1385.2999999523163,,Z,,1,1,67597.5,67597.29999995232,66195.4,66206.5,66212,67629.5,
Multicolor Textbox,html.Form,0_2_1_0_0_19_1,2025-09-14T10:12:31.789Z,,,,,NaN,skipped,Z,,,1,67597.89999985695,67597.29999995232,,67597.89999985695,,67629.5,
ColorPicker Question,html.Screen,0_2_1_0_0_19_2,2025-09-14T10:12:33.180Z,,#11a570,#5aa511,,1359.7999999523163,,Z,,,1,68989.39999985695,68989.29999995232,67613.2,67598,67629.5,68997.6,
Single Trial,flow.Sequence,0_2_1_0_0_19,2025-09-14T10:12:33.180Z,,,,,2777.2999999523163,completion,Z,,,1,68989.5,68989.29999995232,66195.4,66206.5,66212,68997.6,
Subjective Experience,html.Form,0_2_1_0_0_20_0,2025-09-14T10:12:34.541Z,,,,,1352.6999999523105,,P,,1,1,70350.39999985695,70350.29999995232,68981,68989.5,68997.6,70365.5,
Multicolor Textbox,html.Form,0_2_1_0_0_20_1,2025-09-14T10:12:34.542Z,,,,,NaN,skipped,P,,,1,70350.89999985695,70350.29999995232,,70350.79999995232,,70365.5,
ColorPicker Question,html.Screen,0_2_1_0_0_20_2,2025-09-14T10:12:35.781Z,,#57bbb9,#51a9a8,,1224.8999998569489,,P,,,1,71590.59999990463,71590.39999985695,70348.8,70350.89999985695,70365.5,71599.7,
Single Trial,flow.Sequence,0_2_1_0_0_20,2025-09-14T10:12:35.782Z,,,,,2592.799999856943,completion,P,,,1,71590.79999995232,71590.39999985695,68981,68989.5,68997.6,71599.7,
Subjective Experience,html.Form,0_2_1_0_0_21_0,2025-09-14T10:12:37.502Z,,,,,1710.8999999046355,,D,,1,1,73310.79999995232,73310.59999990463,71583.1,71590.79999995232,71599.7,73317.7,
Multicolor Textbox,html.Form,0_2_1_0_0_21_1,2025-09-14T10:12:37.502Z,,,,,NaN,skipped,D,,,1,73311.39999985695,73310.59999990463,,73311.29999995232,,73317.7,
ColorPicker Question,html.Screen,0_2_1_0_0_21_2,2025-09-14T10:12:38.845Z,,#e0e546,#e0e546,,1336.5999999523192,,D,,,1,74654.5,74654.29999995232,73300.664,73311.39999985695,73317.7,74685.7,
Single Trial,flow.Sequence,0_2_1_0_0_21,2025-09-14T10:12:38.845Z,,,,,3054.599999952319,completion,D,,,1,74654.5,74654.29999995232,71583.1,71590.79999995232,71599.7,74685.7,
Subjective Experience,html.Form,0_2_1_0_0_22_0,2025-09-14T10:12:40.118Z,,,,,1241.0999999523192,,N,,1,1,75926.89999985695,75926.79999995232,74668.998,74654.5,74685.7,75953.3,
Multicolor Textbox,html.Form,0_2_1_0_0_22_1,2025-09-14T10:12:40.118Z,,,,,NaN,skipped,N,,,1,75927.39999985695,75926.79999995232,,75927.39999985695,,75953.3,
ColorPicker Question,html.Screen,0_2_1_0_0_22_2,2025-09-14T10:12:41.462Z,,#818a05,#818a05,,1317.4000000476808,,N,,,1,77270.89999985695,77270.70000004768,75936.7,75927.39999985695,75953.3,77271.1,
Single Trial,flow.Sequence,0_2_1_0_0_22,2025-09-14T10:12:41.462Z,,,,,2585.0000000476866,completion,N,,,1,77271,77270.70000004768,74668.998,74654.5,74685.7,77271.1,
Subjective Experience,html.Form,0_2_1_0_0_23_0,2025-09-14T10:12:42.934Z,,,,,1471.600000047678,,K,,1,1,78742.89999985695,78742.70000004768,77271.064,77271.09999990463,77271.1,78755.6,
Multicolor Textbox,html.Form,0_2_1_0_0_23_1,2025-09-14T10:12:42.934Z,,,,,NaN,skipped,K,,,1,78743.29999995232,78742.70000004768,,78743.29999995232,,78755.6,
ColorPicker Question,html.Screen,0_2_1_0_0_23_2,2025-09-14T10:12:44.230Z,,#d036d2,#d036d2,,1283.299999856943,,K,,,1,80039.09999990463,80038.89999985695,78739,78743.39999985695,78755.6,80056.8,
Single Trial,flow.Sequence,0_2_1_0_0_23,2025-09-14T10:12:44.230Z,,,,,2767.799999856943,completion,K,,,1,80039.20000004768,80038.89999985695,77271.064,77271.09999990463,77271.1,80056.8,
Subjective Experience,html.Form,0_2_1_0_0_24_0,2025-09-14T10:12:45.541Z,,,,,1292.7999999046297,,L,,1,1,81349.70000004768,81349.59999990463,80040.1,80039.20000004768,80056.8,81374.5,
Multicolor Textbox,html.Form,0_2_1_0_0_24_1,2025-09-14T10:12:45.541Z,,,,,NaN,skipped,L,,,1,81350.20000004768,81349.59999990463,,81350.09999990463,,81374.5,
ColorPicker Question,html.Screen,0_2_1_0_0_24_2,2025-09-14T10:12:46.845Z,,#bcaa1a,#bcaa1a,,1279.7999999523163,,L,,,1,82654.39999985695,82654.29999995232,81357.866,81350.20000004768,81374.5,82658.9,
Single Trial,flow.Sequence,0_2_1_0_0_24,2025-09-14T10:12:46.845Z,,,,,2597.4999999523134,completion,L,,,1,82654.59999990463,82654.29999995232,80040.1,80039.20000004768,80056.8,82658.9,
Subjective Experience,html.Form,0_2_1_0_0_25_0,2025-09-14T10:12:48.118Z,,,,,1267.9999998569547,,U,,1,1,83927,83926.89999985695,82642.3,82654.59999990463,82658.9,83943.2,
Multicolor Textbox,html.Form,0_2_1_0_0_25_1,2025-09-14T10:12:48.118Z,,,,,NaN,skipped,U,,,1,83927.39999985695,83926.89999985695,,83927.39999985695,,83943.2,
ColorPicker Question,html.Screen,0_2_1_0_0_25_2,2025-09-14T10:12:49.430Z,,#5d0731,#5d0731,,1295.300000000003,,U,,,1,85238.70000004768,85238.5,83926.6,83927.39999985695,83943.2,85244.4,
Single Trial,flow.Sequence,0_2_1_0_0_25,2025-09-14T10:12:49.430Z,,,,,2579.600000000006,completion,U,,,1,85238.79999995232,85238.5,82642.3,82654.59999990463,82658.9,85244.4,
Colorpicker Trials Loop,flow.Loop,0_2_1_0_0,2025-09-14T10:12:49.430Z,,,,,82261.9,completion,,,,1,85238.89999985695,85238.5,2960,2974.399999856949,2976.6,85244.4,
Break,html.Screen,0_2_1_0_1,2025-09-14T10:13:08.037Z,,,,,18600.999999856955,,,,,1,103845.5,103845.39999985695,85227.7,85238.89999985695,85244.4,103859.3,
Single Repetition,flow.Sequence,0_2_1_0,2025-09-14T10:13:08.037Z,,,,,100868.79999985694,completion,,,,1,103845.59999990463,103845.39999985695,2960,2974.399999856949,2976.6,103859.3,
Subjective Experience,html.Form,0_2_1_1_0_0_0,2025-09-14T10:13:08.037Z,,,,,NaN,skipped,Y,,,2,103845.70000004768,103845.39999985695,,103845.70000004768,,103859.3,
Multicolor Textbox,html.Form,0_2_1_1_0_0_1,2025-09-14T10:13:08.037Z,,,,,NaN,skipped,Y,,,2,103845.89999985695,103845.39999985695,,103845.89999985695,,103859.3,
ColorPicker Question,html.Screen,0_2_1_1_0_0_2,2025-09-14T10:13:09.430Z,,#d3dd98,#d2e17b,,1379.4000000476808,,Y,,,2,105238.79999995232,105238.70000004768,103843,103846,103859.3,105244.2,
Single Trial,flow.Sequence,0_2_1_1_0_0,2025-09-14T10:13:09.430Z,,,,,1379.4000000476808,completion,Y,,,2,105238.89999985695,105238.70000004768,103843,103845.59999990463,103859.3,105244.2,
Subjective Experience,html.Form,0_2_1_1_0_1_0,2025-09-14T10:13:09.430Z,,,,,NaN,skipped,D,,,2,105239,105238.70000004768,,105239,,105244.2,
Multicolor Textbox,html.Form,0_2_1_1_0_1_1,2025-09-14T10:13:09.430Z,,,,,NaN,skipped,D,,,2,105239.20000004768,105238.70000004768,,105239.20000004768,,105244.2,
ColorPicker Question,html.Screen,0_2_1_1_0_1_2,2025-09-14T10:13:10.925Z,,#1ae17e,#1a8ae1,,1490.0000000476866,,D,,,2,106734.39999985695,106734.20000004768,105227.5,105239.20000004768,105244.2,106745.4,
Single Trial,flow.Sequence,0_2_1_1_0_1,2025-09-14T10:13:10.925Z,,,,,1490.0000000476866,completion,D,,,2,106734.5,106734.20000004768,105227.5,105239,105244.2,106745.4,
Subjective Experience,html.Form,0_2_1_1_0_2_0,2025-09-14T10:13:10.925Z,,,,,NaN,skipped,G,,,2,106734.5,106734.20000004768,,106734.5,,106745.4,
Multicolor Textbox,html.Form,0_2_1_1_0_2_1,2025-09-14T10:13:10.926Z,,,,,NaN,skipped,G,,,2,106734.70000004768,106734.20000004768,,106734.70000004768,,106745.4,
ColorPicker Question,html.Screen,0_2_1_1_0_2_2,2025-09-14T10:13:12.036Z,,#227f94,#227f94,,1099.899999952322,,G,,,2,107845.39999985695,107845.29999995232,106728.8,106734.70000004768,106745.4,107846.3,
Single Trial,flow.Sequence,0_2_1_1_0_2,2025-09-14T10:13:12.037Z,,,,,1099.899999952322,completion,G,,,2,107845.59999990463,107845.29999995232,106728.8,106734.5,106745.4,107846.3,
Subjective Experience,html.Form,0_2_1_1_0_3_0,2025-09-14T10:13:12.037Z,,,,,NaN,skipped,Q,,,2,107845.70000004768,107845.29999995232,,107845.59999990463,,107846.3,
Multicolor Textbox,html.Form,0_2_1_1_0_3_1,2025-09-14T10:13:12.037Z,,,,,NaN,skipped,Q,,,2,107845.89999985695,107845.29999995232,,107845.89999985695,,107846.3,
ColorPicker Question,html.Screen,0_2_1_1_0_3_2,2025-09-14T10:13:13.284Z,,#70ad8f,#70ad8f,,1246.599999856946,,Q,,,2,109093,109092.89999985695,107846.232,107845.89999985695,107846.3,109114,
Single Trial,flow.Sequence,0_2_1_1_0_3,2025-09-14T10:13:13.284Z,,,,,1246.599999856946,completion,Q,,,2,109093,109092.89999985695,107846.232,107845.59999990463,107846.3,109114,
Subjective Experience,html.Form,0_2_1_1_0_4_0,2025-09-14T10:13:13.284Z,,,,,NaN,skipped,L,,,2,109093.20000004768,109092.89999985695,,109093.20000004768,,109114,
Multicolor Textbox,html.Form,0_2_1_1_0_4_1,2025-09-14T10:13:13.284Z,,,,,NaN,skipped,L,,,2,109093.39999985695,109092.89999985695,,109093.39999985695,,109114,
ColorPicker Question,html.Screen,0_2_1_1_0_4_2,2025-09-14T10:13:14.406Z,,#0fa6ab,#0fa6ab,,1101,,L,,,2,110215.20000004768,110215,109097.366,109093.39999985695,109114,110214.9,
Single Trial,flow.Sequence,0_2_1_1_0_4,2025-09-14T10:13:14.406Z,,,,,1101,completion,L,,,2,110215.29999995232,110215,109097.366,109093.09999990463,109114,110214.9,
Subjective Experience,html.Form,0_2_1_1_0_5_0,2025-09-14T10:13:14.406Z,,,,,NaN,skipped,Z,,,2,110215.39999985695,110215,,110215.39999985695,,110214.9,
Multicolor Textbox,html.Form,0_2_1_1_0_5_1,2025-09-14T10:13:14.407Z,,,,,NaN,skipped,Z,,,2,110215.79999995232,110215,,110215.70000004768,,110214.9,
ColorPicker Question,html.Screen,0_2_1_1_0_5_2,2025-09-14T10:13:15.735Z,,#bf1304,#bf1304,,1329.1000000000058,,Z,,,2,111544.29999995232,111544,110214.83,110215.79999995232,110214.9,111549.196,
Single Trial,flow.Sequence,0_2_1_1_0_5,2025-09-14T10:13:15.736Z,,,,,1329.1000000000058,completion,Z,,,2,111544.5,111544,110214.83,110215.29999995232,110214.9,111549.196,
Subjective Experience,html.Form,0_2_1_1_0_6_0,2025-09-14T10:13:15.736Z,,,,,NaN,skipped,T,,,2,111544.70000004768,111544,,111544.59999990463,,111549.196,
Multicolor Textbox,html.Form,0_2_1_1_0_6_1,2025-09-14T10:13:15.736Z,,,,,NaN,skipped,T,,,2,111545.39999985695,111544,,111545.29999995232,,111549.196,
ColorPicker Question,html.Screen,0_2_1_1_0_6_2,2025-09-14T10:13:16.998Z,,#2bb502,#2bb502,,1257.5040000476874,,T,,,2,112806.89999985695,112806.70000004768,111549.196,111545.39999985695,111549.196,112817.1,
Single Trial,flow.Sequence,0_2_1_1_0_6,2025-09-14T10:13:16.998Z,,,,,1257.5040000476874,completion,T,,,2,112806.89999985695,112806.70000004768,111549.196,111544.59999990463,111549.196,112817.1,
Subjective Experience,html.Form,0_2_1_1_0_7_0,2025-09-14T10:13:16.998Z,,,,,NaN,skipped,U,,,2,112807,112806.70000004768,,112806.89999985695,,112817.1,
Multicolor Textbox,html.Form,0_2_1_1_0_7_1,2025-09-14T10:13:16.998Z,,,,,NaN,skipped,U,,,2,112807.29999995232,112806.70000004768,,112807.29999995232,,112817.1,
ColorPicker Question,html.Screen,0_2_1_1_0_7_2,2025-09-14T10:13:18.302Z,,#781749,#781749,,1293.8999999999942,,U,,,2,114111.09999990463,114111,112800.4,112807.29999995232,112817.1,114118,
Single Trial,flow.Sequence,0_2_1_1_0_7,2025-09-14T10:13:18.302Z,,,,,1293.8999999999942,completion,U,,,2,114111.20000004768,114111,112800.4,112806.89999985695,112817.1,114118,
Subjective Experience,html.Form,0_2_1_1_0_8_0,2025-09-14T10:13:18.302Z,,,,,NaN,skipped,M,,,2,114111.29999995232,114111,,114111.20000004768,,114118,
Multicolor Textbox,html.Form,0_2_1_1_0_8_1,2025-09-14T10:13:18.303Z,,,,,NaN,skipped,M,,,2,114111.59999990463,114111,,114111.5,,114118,
ColorPicker Question,html.Screen,0_2_1_1_0_8_2,2025-09-14T10:13:19.686Z,,#237f50,#237f50,,1376.7999999523163,,M,,,2,115494.89999985695,115494.79999995232,114101.4,114111.59999990463,114118,115502.6,
Single Trial,flow.Sequence,0_2_1_1_0_8,2025-09-14T10:13:19.686Z,,,,,1376.7999999523163,completion,M,,,2,115495,115494.79999995232,114101.4,114111.20000004768,114118,115502.6,
Subjective Experience,html.Form,0_2_1_1_0_9_0,2025-09-14T10:13:19.686Z,,,,,NaN,skipped,P,,,2,115495.09999990463,115494.79999995232,,115495,,115502.6,
Multicolor Textbox,html.Form,0_2_1_1_0_9_1,2025-09-14T10:13:19.686Z,,,,,NaN,skipped,P,,,2,115495.39999985695,115494.79999995232,,115495.29999995232,,115502.6,
ColorPicker Question,html.Screen,0_2_1_1_0_9_2,2025-09-14T10:13:20.838Z,,#284ea2,#284ea2,,1144.4999999046267,,P,,,2,116647.20000004768,116647.09999990463,115485.9,115495.39999985695,115502.6,116653.6,
Single Trial,flow.Sequence,0_2_1_1_0_9,2025-09-14T10:13:20.838Z,,,,,1144.4999999046267,completion,P,,,2,116647.29999995232,116647.09999990463,115485.9,115495,115502.6,116653.6,
Subjective Experience,html.Form,0_2_1_1_0_10_0,2025-09-14T10:13:20.838Z,,,,,NaN,skipped,C,,,2,116647.39999985695,116647.09999990463,,116647.29999995232,,116653.6,
Multicolor Textbox,html.Form,0_2_1_1_0_10_1,2025-09-14T10:13:20.839Z,,,,,NaN,skipped,C,,,2,116647.70000004768,116647.09999990463,,116647.70000004768,,116653.6,
ColorPicker Question,html.Screen,0_2_1_1_0_10_2,2025-09-14T10:13:21.982Z,,#f591a4,#f591a4,,1137.1999999523105,,C,,,2,117791,117790.79999995232,116636.8,116647.70000004768,116653.6,117804.4,
Single Trial,flow.Sequence,0_2_1_1_0_10,2025-09-14T10:13:21.982Z,,,,,1137.1999999523105,completion,C,,,2,117791.09999990463,117790.79999995232,116636.8,116647.29999995232,116653.6,117804.4,
Subjective Experience,html.Form,0_2_1_1_0_11_0,2025-09-14T10:13:21.982Z,,,,,NaN,skipped,H,,,2,117791.20000004768,117790.79999995232,,117791.09999990463,,117804.4,
Multicolor Textbox,html.Form,0_2_1_1_0_11_1,2025-09-14T10:13:21.983Z,,,,,NaN,skipped,H,,,2,117791.5,117790.79999995232,,117791.5,,117804.4,
ColorPicker Question,html.Screen,0_2_1_1_0_11_2,2025-09-14T10:13:23.381Z,,#e5afcd,#e5afcd,,1385.4999998569547,,H,,,2,119190,119189.89999985695,117787.8,117791.5,117804.4,119205.7,
Single Trial,flow.Sequence,0_2_1_1_0_11,2025-09-14T10:13:23.381Z,,,,,1385.4999998569547,completion,H,,,2,119190.09999990463,119189.89999985695,117787.8,117791.09999990463,117804.4,119205.7,
Subjective Experience,html.Form,0_2_1_1_0_12_0,2025-09-14T10:13:23.381Z,,,,,NaN,skipped,W,,,2,119190.20000004768,119189.89999985695,,119190.09999990463,,119205.7,
Multicolor Textbox,html.Form,0_2_1_1_0_12_1,2025-09-14T10:13:23.382Z,,,,,NaN,skipped,W,,,2,119190.5,119189.89999985695,,119190.5,,119205.7,
ColorPicker Question,html.Screen,0_2_1_1_0_12_2,2025-09-14T10:13:25.414Z,,#2152dd,#2152dd,,2017.0000000476866,,W,,,2,121222.79999995232,121222.70000004768,119189,119190.5,119205.7,121224,
Single Trial,flow.Sequence,0_2_1_1_0_12,2025-09-14T10:13:25.414Z,,,,,2017.0000000476866,completion,W,,,2,121222.89999985695,121222.70000004768,119189,119190.09999990463,119205.7,121224,
Subjective Experience,html.Form,0_2_1_1_0_13_0,2025-09-14T10:13:25.414Z,,,,,NaN,skipped,X,,,2,121222.89999985695,121222.70000004768,,121222.89999985695,,121224,
Multicolor Textbox,html.Form,0_2_1_1_0_13_1,2025-09-14T10:13:25.414Z,,,,,NaN,skipped,X,,,2,121223.29999995232,121222.70000004768,,121223.29999995232,,121224,
ColorPicker Question,html.Screen,0_2_1_1_0_13_2,2025-09-14T10:13:26.760Z,,#58e907,#58e907,,1344.2000000476837,,X,,,2,122568.5,122568.20000004768,121223.862,121223.39999985695,121224,122575.1,
Single Trial,flow.Sequence,0_2_1_1_0_13,2025-09-14T10:13:26.760Z,,,,,1344.2000000476837,completion,X,,,2,122568.70000004768,122568.20000004768,121223.862,121222.89999985695,121224,122575.1,
Subjective Experience,html.Form,0_2_1_1_0_14_0,2025-09-14T10:13:26.760Z,,,,,NaN,skipped,I,,,2,122568.89999985695,122568.20000004768,,122568.79999995232,,122575.1,
Multicolor Textbox,html.Form,0_2_1_1_0_14_1,2025-09-14T10:13:26.761Z,,,,,NaN,skipped,I,,,2,122569.59999990463,122568.20000004768,,122569.5,,122575.1,
ColorPicker Question,html.Screen,0_2_1_1_0_14_2,2025-09-14T10:13:28.182Z,,#bb8837,#bb8837,,1415.799999856943,,I,,,2,123991,123990.89999985695,122558.4,122569.59999990463,122575.1,123992.9,
Single Trial,flow.Sequence,0_2_1_1_0_14,2025-09-14T10:13:28.182Z,,,,,1415.799999856943,completion,I,,,2,123991.09999990463,123990.89999985695,122558.4,122568.79999995232,122575.1,123992.9,
Subjective Experience,html.Form,0_2_1_1_0_15_0,2025-09-14T10:13:28.182Z,,,,,NaN,skipped,S,,,2,123991.09999990463,123990.89999985695,,123991.09999990463,,123992.9,
Multicolor Textbox,html.Form,0_2_1_1_0_15_1,2025-09-14T10:13:28.182Z,,,,,NaN,skipped,S,,,2,123991.39999985695,123990.89999985695,,123991.39999985695,,123992.9,
ColorPicker Question,html.Screen,0_2_1_1_0_15_2,2025-09-14T10:13:29.623Z,,#27260a,#27260a,,1439.1000000000058,,S,,,2,125432.29999995232,125432,123992.83,123991.39999985695,123992.9,125444.1,
Single Trial,flow.Sequence,0_2_1_1_0_15,2025-09-14T10:13:29.624Z,,,,,1439.1000000000058,completion,S,,,2,125432.5,125432,123992.83,123991.09999990463,123992.9,125444.1,
Subjective Experience,html.Form,0_2_1_1_0_16_0,2025-09-14T10:13:29.624Z,,,,,NaN,skipped,J,,,2,125432.70000004768,125432,,125432.70000004768,,125444.1,
Multicolor Textbox,html.Form,0_2_1_1_0_16_1,2025-09-14T10:13:29.624Z,,,,,NaN,skipped,J,,,2,125433.39999985695,125432,,125433.29999995232,,125444.1,
ColorPicker Question,html.Screen,0_2_1_1_0_16_2,2025-09-14T10:13:30.709Z,,#9d37cf,#9d37cf,,1074.100000047678,,J,,,2,126518.29999995232,126518.20000004768,125427.43,125433.5,125444.1,126527.5,
Single Trial,flow.Sequence,0_2_1_1_0_16,2025-09-14T10:13:30.709Z,,,,,1074.100000047678,completion,J,,,2,126518.5,126518.20000004768,125427.43,125432.59999990463,125444.1,126527.5,
Subjective Experience,html.Form,0_2_1_1_0_17_0,2025-09-14T10:13:30.710Z,,,,,NaN,skipped,B,,,2,126518.5,126518.20000004768,,126518.5,,126527.5,
Multicolor Textbox,html.Form,0_2_1_1_0_17_1,2025-09-14T10:13:30.710Z,,,,,NaN,skipped,B,,,2,126518.70000004768,126518.20000004768,,126518.70000004768,,126527.5,
ColorPicker Question,html.Screen,0_2_1_1_0_17_2,2025-09-14T10:13:32.078Z,,#c0b9d2,#c0b9d2,,1359.2999999523163,,B,,,2,127886.89999985695,127886.79999995232,126511.7,126518.70000004768,126527.5,127912.8,
Single Trial,flow.Sequence,0_2_1_1_0_17,2025-09-14T10:13:32.078Z,,,,,1359.2999999523163,completion,B,,,2,127887.09999990463,127886.79999995232,126511.7,126518.5,126527.5,127912.8,
Subjective Experience,html.Form,0_2_1_1_0_18_0,2025-09-14T10:13:32.078Z,,,,,NaN,skipped,E,,,2,127887.09999990463,127886.79999995232,,127887.09999990463,,127912.8,
Multicolor Textbox,html.Form,0_2_1_1_0_18_1,2025-09-14T10:13:32.078Z,,,,,NaN,skipped,E,,,2,127887.39999985695,127886.79999995232,,127887.29999995232,,127912.8,
ColorPicker Question,html.Screen,0_2_1_1_0_18_2,2025-09-14T10:13:33.398Z,,#da61c3,#da61c3,,1293.9999999523134,,E,,,2,129206.89999985695,129206.79999995232,127896.2,127887.39999985695,127912.8,129213.9,
Single Trial,flow.Sequence,0_2_1_1_0_18,2025-09-14T10:13:33.398Z,,,,,1293.9999999523134,completion,E,,,2,129207,129206.79999995232,127896.2,127887.09999990463,127912.8,129213.9,
Subjective Experience,html.Form,0_2_1_1_0_19_0,2025-09-14T10:13:33.398Z,,,,,NaN,skipped,A,,,2,129207.09999990463,129206.79999995232,,129207.09999990463,,129213.9,
Multicolor Textbox,html.Form,0_2_1_1_0_19_1,2025-09-14T10:13:33.398Z,,,,,NaN,skipped,A,,,2,129207.29999995232,129206.79999995232,,129207.29999995232,,129213.9,
ColorPicker Question,html.Screen,0_2_1_1_0_19_2,2025-09-14T10:13:34.726Z,,#fa4022,#fa4022,,1320.6000000000058,,A,,,2,130534.59999990463,130534.5,129197.3,129207.39999985695,129213.9,130548.3,
Single Trial,flow.Sequence,0_2_1_1_0_19,2025-09-14T10:13:34.726Z,,,,,1320.6000000000058,completion,A,,,2,130534.70000004768,130534.5,129197.3,129207.09999990463,129213.9,130548.3,
Subjective Experience,html.Form,0_2_1_1_0_20_0,2025-09-14T10:13:34.726Z,,,,,NaN,skipped,F,,,2,130534.79999995232,130534.5,,130534.70000004768,,130548.3,
Multicolor Textbox,html.Form,0_2_1_1_0_20_1,2025-09-14T10:13:34.726Z,,,,,NaN,skipped,F,,,2,130535,130534.5,,130534.89999985695,,130548.3,
ColorPicker Question,html.Screen,0_2_1_1_0_20_2,2025-09-14T10:13:36.030Z,,#7575e3,#7575e3,,1290.9000000476808,,F,,,2,131839.29999995232,131839.20000004768,130531.496,130535,130548.3,131849.4,
Single Trial,flow.Sequence,0_2_1_1_0_20,2025-09-14T10:13:36.030Z,,,,,1290.9000000476808,completion,F,,,2,131839.29999995232,131839.20000004768,130531.496,130534.70000004768,130548.3,131849.4,
Subjective Experience,html.Form,0_2_1_1_0_21_0,2025-09-14T10:13:36.031Z,,,,,NaN,skipped,R,,,2,131839.5,131839.20000004768,,131839.5,,131849.4,
Multicolor Textbox,html.Form,0_2_1_1_0_21_1,2025-09-14T10:13:36.031Z,,,,,NaN,skipped,R,,,2,131839.70000004768,131839.20000004768,,131839.70000004768,,131849.4,
ColorPicker Question,html.Screen,0_2_1_1_0_21_2,2025-09-14T10:13:37.285Z,,#12ecd4,#12ecd4,,1244.6000000000058,,R,,,2,133094.20000004768,133094,131832.7,131839.70000004768,131849.4,133100.4,
Single Trial,flow.Sequence,0_2_1_1_0_21,2025-09-14T10:13:37.285Z,,,,,1244.6000000000058,completion,R,,,2,133094.20000004768,133094,131832.7,131839.5,131849.4,133100.4,
Subjective Experience,html.Form,0_2_1_1_0_22_0,2025-09-14T10:13:37.285Z,,,,,NaN,skipped,O,,,2,133094.20000004768,133094,,133094.20000004768,,133100.4,
Multicolor Textbox,html.Form,0_2_1_1_0_22_1,2025-09-14T10:13:37.286Z,,,,,NaN,skipped,O,,,2,133094.5,133094,,133094.5,,133100.4,
ColorPicker Question,html.Screen,0_2_1_1_0_22_2,2025-09-14T10:13:38.638Z,,#9a1739,#9a1739,,1346.1999999046384,,O,,,2,134446.70000004768,134446.59999990463,133083.8,133094.5,133100.4,134451.5,
Single Trial,flow.Sequence,0_2_1_1_0_22,2025-09-14T10:13:38.638Z,,,,,1346.1999999046384,completion,O,,,2,134446.79999995232,134446.59999990463,133083.8,133094.20000004768,133100.4,134451.5,
Subjective Experience,html.Form,0_2_1_1_0_23_0,2025-09-14T10:13:38.638Z,,,,,NaN,skipped,K,,,2,134446.89999985695,134446.59999990463,,134446.79999995232,,134451.5,
Multicolor Textbox,html.Form,0_2_1_1_0_23_1,2025-09-14T10:13:38.638Z,,,,,NaN,skipped,K,,,2,134447.39999985695,134446.59999990463,,134447.09999990463,,134451.5,
ColorPicker Question,html.Screen,0_2_1_1_0_23_2,2025-09-14T10:13:39.966Z,,#b9b68c,#b9b68c,,1323.2999999523163,,K,,,2,135774.89999985695,135774.79999995232,134434.864,134447.39999985695,134451.5,135786,
Single Trial,flow.Sequence,0_2_1_1_0_23,2025-09-14T10:13:39.966Z,,,,,1323.2999999523163,completion,K,,,2,135775.09999990463,135774.79999995232,134434.864,134446.79999995232,134451.5,135786,
Subjective Experience,html.Form,0_2_1_1_0_24_0,2025-09-14T10:13:39.966Z,,,,,NaN,skipped,N,,,2,135775.20000004768,135774.79999995232,,135775.09999990463,,135786,
Multicolor Textbox,html.Form,0_2_1_1_0_24_1,2025-09-14T10:13:39.967Z,,,,,NaN,skipped,N,,,2,135775.39999985695,135774.79999995232,,135775.39999985695,,135786,
ColorPicker Question,html.Screen,0_2_1_1_0_24_2,2025-09-14T10:13:41.246Z,,#083087,#083087,,1268.7999999523163,,N,,,2,137054.89999985695,137054.79999995232,135769.23,135775.39999985695,135786,137070.4,
Single Trial,flow.Sequence,0_2_1_1_0_24,2025-09-14T10:13:41.246Z,,,,,1268.7999999523163,completion,N,,,2,137054.89999985695,137054.79999995232,135769.23,135775.09999990463,135786,137070.4,
Subjective Experience,html.Form,0_2_1_1_0_25_0,2025-09-14T10:13:41.246Z,,,,,NaN,skipped,V,,,2,137055,137054.79999995232,,137055,,137070.4,
Multicolor Textbox,html.Form,0_2_1_1_0_25_1,2025-09-14T10:13:41.246Z,,,,,NaN,skipped,V,,,2,137055.29999995232,137054.79999995232,,137055.29999995232,,137070.4,
ColorPicker Question,html.Screen,0_2_1_1_0_25_2,2025-09-14T10:13:42.550Z,,#44662f,#44662f,,1287.9999998569547,,V,,,2,138358.5,138358.39999985695,137053.63,137055.29999995232,137070.4,138371.4,
Single Trial,flow.Sequence,0_2_1_1_0_25,2025-09-14T10:13:42.550Z,,,,,1287.9999998569547,completion,V,,,2,138358.59999990463,138358.39999985695,137053.63,137054.89999985695,137070.4,138371.4,
Colorpicker Trials Loop,flow.Loop,0_2_1_1_0,2025-09-14T10:13:42.550Z,,,,,34499.099999856946,completion,,,,2,138358.70000004768,138358.39999985695,103843,103845.59999990463,103859.3,138371.4,
Break,html.Screen,0_2_1_1_1,2025-09-14T10:13:54.622Z,,,,,12058.999999856955,,,,,2,150430.5,150430.39999985695,138354.8,138358.70000004768,138371.4,150431.3,
Single Repetition,flow.Sequence,0_2_1_1,2025-09-14T10:13:54.622Z,,,,,46571.099999856946,completion,,,,2,150430.5,150430.39999985695,103843,103845.59999990463,103859.3,150431.3,
Subjective Experience,html.Form,0_2_1_2_0_0_0,2025-09-14T10:13:54.622Z,,,,,NaN,skipped,I,,,3,150430.59999990463,150430.39999985695,,150430.5,,150431.3,
Multicolor Textbox,html.Form,0_2_1_2_0_0_1,2025-09-14T10:13:54.622Z,,,,,NaN,skipped,I,,,3,150430.89999985695,150430.39999985695,,150430.89999985695,,150431.3,
ColorPicker Question,html.Screen,0_2_1_2_0_0_2,2025-09-14T10:13:56.045Z,,#4b4878,#4b4878,,1422.9000000476954,,I,,,3,151854.39999985695,151854.20000004768,150431.296,150430.89999985695,150431.3,151865.9,
Single Trial,flow.Sequence,0_2_1_2_0_0,2025-09-14T10:13:56.046Z,,,,,1422.9000000476954,completion,I,,,3,151854.39999985695,151854.20000004768,150431.296,150430.5,150431.3,151865.9,
Subjective Experience,html.Form,0_2_1_2_0_1_0,2025-09-14T10:13:56.046Z,,,,,NaN,skipped,A,,,3,151854.39999985695,151854.20000004768,,151854.39999985695,,151865.9,
Multicolor Textbox,html.Form,0_2_1_2_0_1_1,2025-09-14T10:13:56.046Z,,,,,NaN,skipped,A,,,3,151854.70000004768,151854.20000004768,,151854.70000004768,,151865.9,
ColorPicker Question,html.Screen,0_2_1_2_0_1_2,2025-09-14T10:13:57.366Z,,#c7a3a9,#c7a3a9,,1308.4999998569547,,A,,,3,153174.59999990463,153174.39999985695,151849.2,151854.70000004768,151865.9,153183.7,
Single Trial,flow.Sequence,0_2_1_2_0_1,2025-09-14T10:13:57.366Z,,,,,1308.4999998569547,completion,A,,,3,153174.59999990463,153174.39999985695,151849.2,151854.39999985695,151865.9,153183.7,
Subjective Experience,html.Form,0_2_1_2_0_2_0,2025-09-14T10:13:57.366Z,,,,,NaN,skipped,F,,,3,153174.70000004768,153174.39999985695,,153174.70000004768,,153183.7,
Multicolor Textbox,html.Form,0_2_1_2_0_2_1,2025-09-14T10:13:57.366Z,,,,,NaN,skipped,F,,,3,153175,153174.39999985695,,153174.89999985695,,153183.7,
ColorPicker Question,html.Screen,0_2_1_2_0_2_2,2025-09-14T10:13:58.694Z,,#9833ea,#9833ea,,1318.7999999999884,,F,,,3,154502.59999990463,154502.5,153166.93,153175,153183.7,154518.1,
Single Trial,flow.Sequence,0_2_1_2_0_2,2025-09-14T10:13:58.694Z,,,,,1318.7999999999884,completion,F,,,3,154502.70000004768,154502.5,153166.93,153174.59999990463,153183.7,154518.1,
Subjective Experience,html.Form,0_2_1_2_0_3_0,2025-09-14T10:13:58.694Z,,,,,NaN,skipped,Q,,,3,154502.70000004768,154502.5,,154502.70000004768,,154518.1,
Multicolor Textbox,html.Form,0_2_1_2_0_3_1,2025-09-14T10:13:58.694Z,,,,,NaN,skipped,Q,,,3,154503,154502.5,,154503,,154518.1,
ColorPicker Question,html.Screen,0_2_1_2_0_3_2,2025-09-14T10:14:00.093Z,,#480eaa,#480eaa,,1384.100000047678,,Q,,,3,155902.29999995232,155902.20000004768,154501.4,154503,154518.1,155902.5,
Single Trial,flow.Sequence,0_2_1_2_0_3,2025-09-14T10:14:00.094Z,,,,,1384.100000047678,completion,Q,,,3,155902.29999995232,155902.20000004768,154501.4,154502.70000004768,154518.1,155902.5,
Subjective Experience,html.Form,0_2_1_2_0_4_0,2025-09-14T10:14:00.094Z,,,,,NaN,skipped,D,,,3,155902.39999985695,155902.20000004768,,155902.39999985695,,155902.5,
Multicolor Textbox,html.Form,0_2_1_2_0_4_1,2025-09-14T10:14:00.094Z,,,,,NaN,skipped,D,,,3,155902.79999995232,155902.20000004768,,155902.79999995232,,155902.5,
ColorPicker Question,html.Screen,0_2_1_2_0_4_2,2025-09-14T10:14:01.438Z,,#d06fbf,#d06fbf,,1344.2999999523163,,D,,,3,157246.89999985695,157246.79999995232,155902.462,155902.89999985695,155902.5,157253.4,
Single Trial,flow.Sequence,0_2_1_2_0_4,2025-09-14T10:14:01.438Z,,,,,1344.2999999523163,completion,D,,,3,157247,157246.79999995232,155902.462,155902.39999985695,155902.5,157253.4,
Subjective Experience,html.Form,0_2_1_2_0_5_0,2025-09-14T10:14:01.438Z,,,,,NaN,skipped,U,,,3,157247,157246.79999995232,,157247,,157253.4,
Multicolor Textbox,html.Form,0_2_1_2_0_5_1,2025-09-14T10:14:01.438Z,,,,,NaN,skipped,U,,,3,157247.29999995232,157246.79999995232,,157247.29999995232,,157253.4,
ColorPicker Question,html.Screen,0_2_1_2_0_5_2,2025-09-14T10:14:02.774Z,,#c3921e,#c3921e,,1329.1999999046384,,U,,,3,158582.70000004768,158582.59999990463,157236.896,157247.29999995232,157253.4,158588,
Single Trial,flow.Sequence,0_2_1_2_0_5,2025-09-14T10:14:02.774Z,,,,,1329.1999999046384,completion,U,,,3,158582.79999995232,158582.59999990463,157236.896,157247,157253.4,158588,
Subjective Experience,html.Form,0_2_1_2_0_6_0,2025-09-14T10:14:02.774Z,,,,,NaN,skipped,Y,,,3,158582.89999985695,158582.59999990463,,158582.89999985695,,158588,
Multicolor Textbox,html.Form,0_2_1_2_0_6_1,2025-09-14T10:14:02.774Z,,,,,NaN,skipped,Y,,,3,158583.09999990463,158582.59999990463,,158583.09999990463,,158588,
ColorPicker Question,html.Screen,0_2_1_2_0_6_2,2025-09-14T10:14:04.094Z,,#c771fb,#c771fb,,1314.5,,Y,,,3,159902.59999990463,159902.5,158571.5,158583.09999990463,158588,159905.8,
Single Trial,flow.Sequence,0_2_1_2_0_6,2025-09-14T10:14:04.094Z,,,,,1314.5,completion,Y,,,3,159902.70000004768,159902.5,158571.5,158582.79999995232,158588,159905.8,
Subjective Experience,html.Form,0_2_1_2_0_7_0,2025-09-14T10:14:04.094Z,,,,,NaN,skipped,M,,,3,159902.79999995232,159902.5,,159902.79999995232,,159905.8,
Multicolor Textbox,html.Form,0_2_1_2_0_7_1,2025-09-14T10:14:04.094Z,,,,,NaN,skipped,M,,,3,159903,159902.5,,159903,,159905.8,
ColorPicker Question,html.Screen,0_2_1_2_0_7_2,2025-09-14T10:14:05.397Z,,#8ba3db,#8ba3db,,1300.2000000000116,,M,,,3,161206,161206,159889.13,159903,159905.8,161206.862,
Single Trial,flow.Sequence,0_2_1_2_0_7,2025-09-14T10:14:05.397Z,,,,,1300.2000000000116,completion,M,,,3,161206.09999990463,161206,159889.13,159902.79999995232,159905.8,161206.862,
Subjective Experience,html.Form,0_2_1_2_0_8_0,2025-09-14T10:14:05.397Z,,,,,NaN,skipped,O,,,3,161206.20000004768,161206,,161206.09999990463,,161206.862,
Multicolor Textbox,html.Form,0_2_1_2_0_8_1,2025-09-14T10:14:05.398Z,,,,,NaN,skipped,O,,,3,161206.5,161206,,161206.39999985695,,161206.862,
ColorPicker Question,html.Screen,0_2_1_2_0_8_2,2025-09-14T10:14:06.734Z,,#4c0ccc,#4c0ccc,,1335.5379998569551,,O,,,3,162542.5,162542.39999985695,161206.862,161206.5,161206.862,162558,
Single Trial,flow.Sequence,0_2_1_2_0_8,2025-09-14T10:14:06.734Z,,,,,1335.5379998569551,completion,O,,,3,162542.70000004768,162542.39999985695,161206.862,161206.09999990463,161206.862,162558,
Subjective Experience,html.Form,0_2_1_2_0_9_0,2025-09-14T10:14:06.734Z,,,,,NaN,skipped,H,,,3,162542.70000004768,162542.39999985695,,162542.70000004768,,162558,
Multicolor Textbox,html.Form,0_2_1_2_0_9_1,2025-09-14T10:14:06.734Z,,,,,NaN,skipped,H,,,3,162542.89999985695,162542.39999985695,,162542.89999985695,,162558,
ColorPicker Question,html.Screen,0_2_1_2_0_9_2,2025-09-14T10:14:08.077Z,,#e3a0a9,#e3a0a9,,1328,,H,,,3,163886.20000004768,163886,162541.296,162542.89999985695,162558,163892.5,
Single Trial,flow.Sequence,0_2_1_2_0_9,2025-09-14T10:14:08.077Z,,,,,1328,completion,H,,,3,163886.29999995232,163886,162541.296,162542.70000004768,162558,163892.5,
Subjective Experience,html.Form,0_2_1_2_0_10_0,2025-09-14T10:14:08.078Z,,,,,NaN,skipped,E,,,3,163886.29999995232,163886,,163886.29999995232,,163892.5,
Multicolor Textbox,html.Form,0_2_1_2_0_10_1,2025-09-14T10:14:08.078Z,,,,,NaN,skipped,E,,,3,163886.59999990463,163886,,163886.59999990463,,163892.5,
ColorPicker Question,html.Screen,0_2_1_2_0_10_2,2025-09-14T10:14:09.405Z,,#04e01e,#04e01e,,1321.5999999046326,,E,,,3,165214.09999990463,165214.09999990463,163875.8,163886.59999990463,163892.5,165226.8,
Single Trial,flow.Sequence,0_2_1_2_0_10,2025-09-14T10:14:09.405Z,,,,,1321.5999999046326,completion,E,,,3,165214.20000004768,165214.09999990463,163875.8,163886.29999995232,163892.5,165226.8,
Subjective Experience,html.Form,0_2_1_2_0_11_0,2025-09-14T10:14:09.406Z,,,,,NaN,skipped,S,,,3,165214.29999995232,165214.09999990463,,165214.29999995232,,165226.8,
Multicolor Textbox,html.Form,0_2_1_2_0_11_1,2025-09-14T10:14:09.406Z,,,,,NaN,skipped,S,,,3,165214.5,165214.09999990463,,165214.5,,165226.8,
ColorPicker Question,html.Screen,0_2_1_2_0_11_2,2025-09-14T10:14:10.838Z,,#4bde98,#4bde98,,1419.7000000000116,,S,,,3,166646.59999990463,166646.5,165210.2,165214.5,165226.8,166661.4,
Single Trial,flow.Sequence,0_2_1_2_0_11,2025-09-14T10:14:10.838Z,,,,,1419.7000000000116,completion,S,,,3,166646.70000004768,166646.5,165210.2,165214.20000004768,165226.8,166661.4,
Subjective Experience,html.Form,0_2_1_2_0_12_0,2025-09-14T10:14:10.838Z,,,,,NaN,skipped,X,,,3,166646.79999995232,166646.5,,166646.70000004768,,166661.4,
Multicolor Textbox,html.Form,0_2_1_2_0_12_1,2025-09-14T10:14:10.838Z,,,,,NaN,skipped,X,,,3,166647,166646.5,,166647,,166661.4,
ColorPicker Question,html.Screen,0_2_1_2_0_12_2,2025-09-14T10:14:12.206Z,,#c62dc8,#c62dc8,,1352.899999952322,,X,,,3,168014.5,168014.29999995232,166644.7,166647,166661.4,168029.2,
Single Trial,flow.Sequence,0_2_1_2_0_12,2025-09-14T10:14:12.206Z,,,,,1352.899999952322,completion,X,,,3,168014.59999990463,168014.29999995232,166644.7,166646.70000004768,166661.4,168029.2,
Subjective Experience,html.Form,0_2_1_2_0_13_0,2025-09-14T10:14:12.206Z,,,,,NaN,skipped,W,,,3,168014.79999995232,168014.29999995232,,168014.59999990463,,168029.2,
Multicolor Textbox,html.Form,0_2_1_2_0_13_1,2025-09-14T10:14:12.206Z,,,,,NaN,skipped,W,,,3,168015.09999990463,168014.29999995232,,168015.09999990463,,168029.2,
ColorPicker Question,html.Screen,0_2_1_2_0_13_2,2025-09-14T10:14:13.529Z,,#1bd731,#1bd731,,1308.399999904621,,W,,,3,169337.79999995232,169337.59999990463,168012.5,168015.09999990463,168029.2,169346.3,
Single Trial,flow.Sequence,0_2_1_2_0_13,2025-09-14T10:14:13.529Z,,,,,1308.399999904621,completion,W,,,3,169338,169337.59999990463,168012.5,168014.59999990463,168029.2,169346.3,
Subjective Experience,html.Form,0_2_1_2_0_14_0,2025-09-14T10:14:13.529Z,,,,,NaN,skipped,T,,,3,169338.20000004768,169337.59999990463,,169338.09999990463,,169346.3,
Multicolor Textbox,html.Form,0_2_1_2_0_14_1,2025-09-14T10:14:13.530Z,,,,,NaN,skipped,T,,,3,169339,169337.59999990463,,169338.89999985695,,169346.3,
ColorPicker Question,html.Screen,0_2_1_2_0_14_2,2025-09-14T10:14:14.854Z,,#f1a3ca,#f1a3ca,,1316.7000000000116,,T,,,3,170663.20000004768,170663,169330.3,169339.09999990463,169346.3,170664.7,
Single Trial,flow.Sequence,0_2_1_2_0_14,2025-09-14T10:14:14.855Z,,,,,1316.7000000000116,completion,T,,,3,170663.29999995232,170663,169330.3,169338,169346.3,170664.7,
Subjective Experience,html.Form,0_2_1_2_0_15_0,2025-09-14T10:14:14.855Z,,,,,NaN,skipped,K,,,3,170663.5,170663,,170663.39999985695,,170664.7,
Multicolor Textbox,html.Form,0_2_1_2_0_15_1,2025-09-14T10:14:14.855Z,,,,,NaN,skipped,K,,,3,170664,170663,,170664,,170664.7,
ColorPicker Question,html.Screen,0_2_1_2_0_15_2,2025-09-14T10:14:16.169Z,,#8fcadf,#8fcadf,,1312.7999999999884,,K,,,3,171977.70000004768,171977.5,170664.63,170664.09999990463,170664.7,171982.5,
Single Trial,flow.Sequence,0_2_1_2_0_15,2025-09-14T10:14:16.169Z,,,,,1312.7999999999884,completion,K,,,3,171978,171977.5,170664.63,170663.39999985695,170664.7,171982.5,
Subjective Experience,html.Form,0_2_1_2_0_16_0,2025-09-14T10:14:16.169Z,,,,,NaN,skipped,R,,,3,171978,171977.5,,171978,,171982.5,
Multicolor Textbox,html.Form,0_2_1_2_0_16_1,2025-09-14T10:14:16.170Z,,,,,NaN,skipped,R,,,3,171978.70000004768,171977.5,,171978.59999990463,,171982.5,
ColorPicker Question,html.Screen,0_2_1_2_0_16_2,2025-09-14T10:14:17.488Z,,#e69969,#e69969,,1313.5999999046326,,R,,,3,173296.5,173296.09999990463,171982.33,171978.70000004768,171982.5,173300.3,
Single Trial,flow.Sequence,0_2_1_2_0_16,2025-09-14T10:14:17.488Z,,,,,1313.5999999046326,completion,R,,,3,173296.79999995232,173296.09999990463,171982.33,171978,171982.5,173300.3,
Subjective Experience,html.Form,0_2_1_2_0_17_0,2025-09-14T10:14:17.488Z,,,,,NaN,skipped,V,,,3,173297.09999990463,173296.09999990463,,173296.89999985695,,173300.3,
Multicolor Textbox,html.Form,0_2_1_2_0_17_1,2025-09-14T10:14:17.489Z,,,,,NaN,skipped,V,,,3,173298.09999990463,173296.09999990463,,173297.89999985695,,173300.3,
ColorPicker Question,html.Screen,0_2_1_2_0_17_2,2025-09-14T10:14:18.808Z,,#268b89,#268b89,,1315.7999999046442,,V,,,3,174616.20000004768,174616.09999990463,173300.064,173298.09999990463,173300.3,174634.6,
Single Trial,flow.Sequence,0_2_1_2_0_17,2025-09-14T10:14:18.808Z,,,,,1315.7999999046442,completion,V,,,3,174616.39999985695,174616.09999990463,173300.064,173296.89999985695,173300.3,174634.6,
Subjective Experience,html.Form,0_2_1_2_0_18_0,2025-09-14T10:14:18.808Z,,,,,NaN,skipped,G,,,3,174616.39999985695,174616.09999990463,,174616.39999985695,,174634.6,
Multicolor Textbox,html.Form,0_2_1_2_0_18_1,2025-09-14T10:14:18.808Z,,,,,NaN,skipped,G,,,3,174616.70000004768,174616.09999990463,,174616.70000004768,,174634.6,
ColorPicker Question,html.Screen,0_2_1_2_0_18_2,2025-09-14T10:14:20.112Z,,#066968,#066968,,1285.6999999523105,,G,,,3,175920.5,175920.29999995232,174618,174616.70000004768,174634.6,175935.7,
Single Trial,flow.Sequence,0_2_1_2_0_18,2025-09-14T10:14:20.112Z,,,,,1285.6999999523105,completion,G,,,3,175920.79999995232,175920.29999995232,174618,174616.39999985695,174634.6,175935.7,
Subjective Experience,html.Form,0_2_1_2_0_19_0,2025-09-14T10:14:20.112Z,,,,,NaN,skipped,J,,,3,175921,175920.29999995232,,175920.89999985695,,175935.7,
Multicolor Textbox,html.Form,0_2_1_2_0_19_1,2025-09-14T10:14:20.113Z,,,,,NaN,skipped,J,,,3,175921.79999995232,175920.29999995232,,175921.70000004768,,175935.7,
ColorPicker Question,html.Screen,0_2_1_2_0_19_2,2025-09-14T10:14:21.431Z,,#4bb50d,#4bb50d,,1303.500000047672,,J,,,3,177239.59999990463,177239.20000004768,175919,175921.79999995232,175935.7,177253.5,
Single Trial,flow.Sequence,0_2_1_2_0_19,2025-09-14T10:14:21.431Z,,,,,1303.500000047672,completion,J,,,3,177239.79999995232,177239.20000004768,175919,175920.89999985695,175935.7,177253.5,
Subjective Experience,html.Form,0_2_1_2_0_20_0,2025-09-14T10:14:21.431Z,,,,,NaN,skipped,L,,,3,177240,177239.20000004768,,177239.89999985695,,177253.5,
Multicolor Textbox,html.Form,0_2_1_2_0_20_1,2025-09-14T10:14:21.432Z,,,,,NaN,skipped,L,,,3,177240.79999995232,177239.20000004768,,177240.70000004768,,177253.5,
ColorPicker Question,html.Screen,0_2_1_2_0_20_2,2025-09-14T10:14:22.790Z,,#daa9ef,#daa9ef,,1345.3999998569489,,L,,,3,178599.09999990463,178598.89999985695,177236.8,177240.79999995232,177253.5,178604.6,
Single Trial,flow.Sequence,0_2_1_2_0_20,2025-09-14T10:14:22.791Z,,,,,1345.3999998569489,completion,L,,,3,178599.20000004768,178598.89999985695,177236.8,177239.79999995232,177253.5,178604.6,
Subjective Experience,html.Form,0_2_1_2_0_21_0,2025-09-14T10:14:22.791Z,,,,,NaN,skipped,N,,,3,178599.39999985695,178598.89999985695,,178599.29999995232,,178604.6,
Multicolor Textbox,html.Form,0_2_1_2_0_21_1,2025-09-14T10:14:22.791Z,,,,,NaN,skipped,N,,,3,178600,178598.89999985695,,178599.89999985695,,178604.6,
ColorPicker Question,html.Screen,0_2_1_2_0_21_2,2025-09-14T10:14:24.078Z,,#2b2b97,#2b2b97,,1281.799999856943,,N,,,3,179886.70000004768,179886.39999985695,178587.9,178600,178604.6,179889,
Single Trial,flow.Sequence,0_2_1_2_0_21,2025-09-14T10:14:24.078Z,,,,,1281.799999856943,completion,N,,,3,179886.79999995232,179886.39999985695,178587.9,178599.29999995232,178604.6,179889,
Subjective Experience,html.Form,0_2_1_2_0_22_0,2025-09-14T10:14:24.078Z,,,,,NaN,skipped,P,,,3,179887,179886.39999985695,,179886.79999995232,,179889,
Multicolor Textbox,html.Form,0_2_1_2_0_22_1,2025-09-14T10:14:24.079Z,,,,,NaN,skipped,P,,,3,179887.39999985695,179886.39999985695,,179887.39999985695,,179889,
ColorPicker Question,html.Screen,0_2_1_2_0_22_2,2025-09-14T10:14:25.510Z,,#4fa2e7,#4fa2e7,,1429.5,,P,,,3,181318.59999990463,181318.5,179888.93,179887.5,179889,181323.116,
Single Trial,flow.Sequence,0_2_1_2_0_22,2025-09-14T10:14:25.510Z,,,,,1429.5,completion,P,,,3,181318.79999995232,181318.5,179888.93,179886.79999995232,179889,181323.116,
Subjective Experience,html.Form,0_2_1_2_0_23_0,2025-09-14T10:14:25.510Z,,,,,NaN,skipped,C,,,3,181318.89999985695,181318.5,,181318.79999995232,,181323.116,
Multicolor Textbox,html.Form,0_2_1_2_0_23_1,2025-09-14T10:14:25.511Z,,,,,NaN,skipped,C,,,3,181319.39999985695,181318.5,,181319.39999985695,,181323.116,
ColorPicker Question,html.Screen,0_2_1_2_0_23_2,2025-09-14T10:14:26.846Z,,#bbaa68,#bbaa68,,1331.6839999523072,,C,,,3,182655,182654.79999995232,181323.116,181319.39999985695,181323.116,182657.9,
Single Trial,flow.Sequence,0_2_1_2_0_23,2025-09-14T10:14:26.846Z,,,,,1331.6839999523072,completion,C,,,3,182655.09999990463,182654.79999995232,181323.116,181318.79999995232,181323.116,182657.9,
Subjective Experience,html.Form,0_2_1_2_0_24_0,2025-09-14T10:14:26.846Z,,,,,NaN,skipped,Z,,,3,182655.09999990463,182654.79999995232,,182655.09999990463,,182657.9,
Multicolor Textbox,html.Form,0_2_1_2_0_24_1,2025-09-14T10:14:26.847Z,,,,,NaN,skipped,Z,,,3,182655.59999990463,182654.79999995232,,182655.59999990463,,182657.9,
ColorPicker Question,html.Screen,0_2_1_2_0_24_2,2025-09-14T10:14:28.183Z,,#65e464,#65e464,,1333.1999999046384,,Z,,,3,183991.29999995232,183991.09999990463,182641.198,182655.59999990463,182657.9,183992.33,
Single Trial,flow.Sequence,0_2_1_2_0_24,2025-09-14T10:14:28.183Z,,,,,1333.1999999046384,completion,Z,,,3,183991.39999985695,183991.09999990463,182641.198,182655.09999990463,182657.9,183992.33,
Subjective Experience,html.Form,0_2_1_2_0_25_0,2025-09-14T10:14:28.183Z,,,,,NaN,skipped,B,,,3,183991.59999990463,183991.09999990463,,183991.5,,183992.33,
Multicolor Textbox,html.Form,0_2_1_2_0_25_1,2025-09-14T10:14:28.183Z,,,,,NaN,skipped,B,,,3,183992,183991.09999990463,,183991.89999985695,,183992.33,
ColorPicker Question,html.Screen,0_2_1_2_0_25_2,2025-09-14T10:14:29.430Z,,#ee785b,#ee785b,,1246.3700000476965,,B,,,3,185239,185238.70000004768,183992.33,183992,183992.33,185242.9,
Single Trial,flow.Sequence,0_2_1_2_0_25,2025-09-14T10:14:29.430Z,,,,,1246.3700000476965,completion,B,,,3,185239.20000004768,185238.70000004768,183992.33,183991.5,183992.33,185242.9,
Colorpicker Trials Loop,flow.Loop,0_2_1_2_0,2025-09-14T10:14:29.431Z,,,,,34807.400000047695,completion,,,,3,185239.20000004768,185238.70000004768,150431.296,150430.5,150431.3,185242.9,
Break,html.Screen,0_2_1_2_1,2025-09-14T10:14:29.431Z,,,,,NaN,skipped,,,,3,185239.39999985695,185238.70000004768,,185239.29999995232,,185242.9,
Single Repetition,flow.Sequence,0_2_1_2,2025-09-14T10:14:29.431Z,,,,,34807.400000047695,completion,,,,3,185239.39999985695,185238.70000004768,150431.296,150430.5,150431.3,185242.9,
3x Repetition Loop,flow.Loop,0_2_1,2025-09-14T10:14:29.431Z,,,,,182262.10000004768,completion,,,,,185239.39999985695,185238.70000004768,2960,2974.399999856949,2976.6,185242.9,
Debrief Text,html.Screen,0_2_2,2025-09-14T10:14:33.254Z,,,,,3819.3000000476895,,,,,,189062.39999985695,189062.20000004768,185226.7,185239.5,185242.9,189063.164,
Experiment,flow.Sequence,0_2,2025-09-14T10:14:33.254Z,,,,,187336.6040000477,completion,,,,,189062.39999985695,189062.20000004768,1725.596,1740.2000000476837,1725.596,189063.164,
Experiment Wrapper,flow.Sequence,0,2025-09-14T10:14:33.254Z,,,,,188971.3000000477,completion,,,,,189062.39999985695,189062.20000004768,74.2,68.29999995231628,90.9,189063.164,
root,flow.Sequence,,2025-09-14T10:14:33.254Z,,,,,188971.3000000477,completion,,,,,189062.79999995232,189062.20000004768,74.2,68.20000004768372,90.9,189063.164,